Folder: master-thesis-code/data_spot_analyzer/spectra

Note: README.md
# Code written as part of my Master's thesis

File: B11.emsa
#FORMAT      : EMSA/MAS Spectral Data File
#VERSION     : 1.0
#TITLE       : B11
#DATE        : 08-APR-2019
#TIME        : 14:42
#OWNER       :
#NPOINTS     : 2048.0
#NCOLUMNS    : 1.0
#XUNITS      : keV
#YUNITS      : counts
#DATATYPE    : XY
#XPERCHAN    : 0.01
#OFFSET      : -0.2
#SIGNALTYPE  : EDS
#CHOFFSET    : 20.0
#LIVETIME    : 60.0
#REALTIME    : 61.0112
#BEAMKV      : 200.0
#MAGCAM      : 60000.0
#XTILTSTGE   : 23.99
#AZIMANGLE   : 0.0
#ELEVANGLE   : 18.6
#XPOSITION mm: 0.0000
#YPOSITION mm: 0.0000
#ZPOSITION mm: 0.0000
##OXINSTPT   : 4
##OXINSTSTROB: 46.66
##OXINSTELEMS: 14,31,33,51,8,6,29,83
##OXINSTLABEL: 14, 1.740, Si
##OXINSTLABEL: 31, 9.252, Ga
##OXINSTLABEL: 31, 10.264, Ga
##OXINSTLABEL: 31, 1.098, Ga
##OXINSTLABEL: 31, 0.984, Ga
##OXINSTLABEL: 31, 0.957, Ga
##OXINSTLABEL: 33, 10.544, As
##OXINSTLABEL: 33, 11.726, As
##OXINSTLABEL: 33, 1.282, As
##OXINSTLABEL: 33, 1.155, As
##OXINSTLABEL: 33, 1.120, As
##OXINSTLABEL: 51, 3.605, Sb
##OXINSTLABEL: 51, 3.844, Sb
##OXINSTLABEL: 51, 4.101, Sb
##OXINSTLABEL: 51, 3.437, Sb
##OXINSTLABEL: 51, 4.348, Sb
##OXINSTLABEL: 51, 4.600, Sb
##OXINSTLABEL: 51, 3.189, Sb
##OXINSTLABEL: 51, 0.429, Sb
##OXINSTLABEL: 8, 0.525, O
##OXINSTLABEL: 6, 0.277, C
##OXINSTLABEL: 29, 8.048, Cu
##OXINSTLABEL: 29, 8.905, Cu
##OXINSTLABEL: 29, 0.930, Cu
##OXINSTLABEL: 29, 0.832, Cu
##OXINSTLABEL: 29, 0.811, Cu
##OXINSTLABEL: 83, 10.839, Bi
##OXINSTLABEL: 83, 13.024, Bi
##OXINSTLABEL: 83, 12.980, Bi
##OXINSTLABEL: 83, 11.712, Bi
##OXINSTLABEL: 83, 15.248, Bi
##OXINSTLABEL: 83, 15.583, Bi
##OXINSTLABEL: 83, 9.420, Bi
##OXINSTLABEL: 83, 2.423, Bi
##OXINSTLABEL: 83, 2.526, Bi
##OXINSTLABEL: 83, 2.736, Bi
##OXINSTLABEL: 83, 1.883, Bi
##OXINSTLABEL: 83, 3.234, Bi
#SPECTRUM    : Spectral Data Starts Here
-0.20000, 0.0
-0.13000, 0.0
-0.06000, 6.0
0.01000, 1996.0
0.08000, 704.0
0.15000, 8.0
0.22000, 21.0
0.29000, 155.0
0.36000, 4.0
0.43000, 12.0
0.50000, 14.0
0.57000, 8.0
0.64000, 4.0
0.71000, 10.0
0.78000, 10.0
0.85000, 10.0
0.92000, 22.0
0.99000, 29.0
1.06000, 88.0
1.13000, 221.0
1.20000, 26.0
1.27000, 115.0
1.34000, 72.0
1.41000, 7.0
1.48000, 9.0
1.55000, 2.0
1.62000, 2.0
1.69000, 4.0
1.76000, 11.0
1.83000, 6.0
1.90000, 4.0
1.97000, 5.0
2.04000, 4.0
2.11000, 5.0
2.18000, 9.0
2.25000, 3.0
2.32000, 3.0
2.39000, 3.0
2.46000, 4.0
2.53000, 4.0
2.60000, 3.0
2.67000, 3.0
2.74000, 4.0
2.81000, 3.0
2.88000, 5.0
2.95000, 2.0
3.02000, 1.0
3.09000, 4.0
3.16000, 6.0
3.23000, 5.0
3.30000, 3.0
3.37000, 4.0
3.44000, 4.0
3.51000, 7.0
3.58000, 40.0
3.65000, 43.0
3.72000, 7.0
3.79000, 13.0
3.86000, 21.0
3.93000, 13.0
4.00000, 4.0
4.07000, 5.0
4.14000, 5.0
4.21000, 3.0
4.28000, 1.0
4.35000, 4.0
4.42000, 4.0
4.49000, 1.0
4.56000, 0.0
4.63000, 2.0
4.70000, 2.0
4.77000, 0.0
4.84000, 2.0
4.91000, 0.0
4.98000, 1.0
5.05000, 4.0
5.12000, 0.0
5.19000, 1.0
5.26000, 2.0
5.33000, 3.0
5.40000, 2.0
5.47000, 1.0
5.54000, 1.0
5.61000, 1.0
5.68000, 2.0
5.75000, 1.0
5.82000, 2.0
5.89000, 2.0
5.96000, 0.0
6.03000, 1.0
6.10000, 0.0
6.17000, 2.0
6.24000, 3.0
6.31000, 3.0
6.38000, 2.0
6.45000, 2.0
6.52000, 2.0
6.59000, 1.0
6.66000, 3.0
6.73000, 1.0
6.80000, 0.0
6.87000, 2.0
6.94000, 3.0
7.01000, 1.0
7.08000, 0.0
7.15000, 0.0
7.22000, 2.0
7.29000, 1.0
7.36000, 2.0
7.43000, 4.0
7.50000, 2.0
7.57000, 0.0
7.64000, 2.0
7.71000, 1.0
7.78000, 1.0
7.85000, 2.0
7.92000, 26.0
7.99000, 77.0
8.06000, 91.0
8.13000, 31.0
8.20000, 6.0
8.27000, 0.0
8.34000, 1.0
8.41000, 1.0
8.48000, 2.0
8.55000, 1.0
8.62000, 0.0
8.69000, 1.0
8.76000, 2.0
8.83000, 9.0
8.90000, 20.0
8.97000, 10.0
9.04000, 8.0
9.11000, 16.0
9.18000, 78.0
9.25000, 104.0
9.32000, 47.0
9.39000, 7.0
9.46000, 3.0
9.53000, 1.0
9.60000, 1.0
9.67000, 1.0
9.74000, 1.0
9.81000, 0.0
9.88000, 0.0
9.95000, 1.0
10.02000, 2.0
10.09000, 2.0
10.16000, 9.0
10.23000, 14.0
10.30000, 13.0
10.37000, 12.0
10.44000, 40.0
10.51000, 61.0
10.58000, 41.0
10.65000, 7.0
10.72000, 2.0
10.79000, 0.0
10.86000, 1.0
10.93000, 2.0
11.00000, 0.0
11.07000, 1.0
11.14000, 0.0
11.21000, 1.0
11.28000, 0.0
11.35000, 1.0
11.42000, 2.0
11.49000, 1.0
11.56000, 1.0
11.63000, 7.0
11.70000, 9.0
11.77000, 6.0
11.84000, 2.0
11.91000, 1.0
11.98000, 0.0
12.05000, 1.0
12.12000, 1.0
12.19000, 0.0
12.26000, 0.0
12.33000, 0.0
12.40000, 0.0
12.47000, 2.0
12.54000, 2.0
12.61000, 0.0
12.68000, 1.0
12.75000, 0.0
12.82000, 0.0
12.89000, 0.0
12.96000, 1.0
13.03000, 0.0
13.10000, 0.0
13.17000, 2.0
13.24000, 0.0
13.31000, 0.0
13.38000, 0.0
13.45000, 2.0
13.52000, 0.0
13.59000, 0.0
13.66000, 0.0
13.73000, 1.0
13.80000, 1.0
13.87000, 1.0
13.94000, 1.0
14.01000, 0.0
14.08000, 0.0
14.15000, 0.0
14.22000, 0.0
14.29000, 1.0
14.36000, 0.0
14.43000, 0.0
14.50000, 1.0
14.57000, 0.0
14.64000, 0.0
14.71000, 0.0
14.78000, 0.0
14.85000, 0.0
14.92000, 1.0
14.99000, 0.0
15.06000, 2.0
15.13000, 0.0
15.20000, 1.0
15.27000, 0.0
15.34000, 0.0
15.41000, 0.0
15.48000, 0.0
15.55000, 0.0
15.62000, 0.0
15.69000, 0.0
15.76000, 1.0
15.83000, 0.0
15.90000, 1.0
15.97000, 0.0
16.04000, 0.0
16.11000, 0.0
16.18000, 0.0
16.25000, 0.0
16.32000, 1.0
16.39000, 0.0
16.46000, 0.0
16.53000, 0.0
16.60000, 1.0
16.67000, 0.0
16.74000, 0.0
16.81000, 0.0
16.88000, 1.0
16.95000, 1.0
17.02000, 2.0
17.09000, 0.0
17.16000, 0.0
17.23000, 0.0
17.30000, 1.0
17.37000, 1.0
17.44000, 0.0
17.51000, 1.0
17.58000, 1.0
17.65000, 0.0
17.72000, 0.0
17.79000, 0.0
17.86000, 0.0
17.93000, 0.0
18.00000, 2.0
18.07000, 0.0
18.14000, 0.0
18.21000, 0.0
18.28000, 0.0
18.35000, 0.0
18.42000, 0.0
18.49000, 1.0
18.56000, 0.0
18.63000, 0.0
18.70000, 0.0
18.77000, 1.0
18.84000, 0.0
18.91000, 0.0
18.98000, 1.0
19.05000, 0.0
19.12000, 0.0
19.19000, 0.0
19.26000, 0.0
19.33000, 1.0
19.40000, 0.0
19.47000, 1.0
19.54000, 0.0
19.61000, 0.0
19.68000, 2.0
19.75000, 0.0
19.82000, 0.0
19.89000, 1.0
19.96000, 0.0
20.03000, 0.0
20.10000, 1.0
20.17000, 0.0
20.24000, 0.0
20.27000, 1.0
#ENDOFDATA   :